//W channel integrated photon spectrum
MASS	Energy Spectrum
5.0	0.0
6.0	0.0
8.0	0.0
10.0	0.0
15.0	0.0
20.0	0.0
25.0	0.0
30.0	0.0
40.0	0.0
50.0	0.0
60.0	0.0
70.0	0.0
80.0	0.0
90.0	8.839548577493655
100.0	9.470122478001281
110.0	9.334869047791276
120.0	10.00413753127593
130.0	10.757339140785016
140.0	10.719815895625803
150.0	11.510701653488391
160.0	12.316993948183441
180.0	13.14558522541785
200.0	13.995033038076551
220.0	14.01154930344226
240.0	14.891023935559772
260.0	15.781729571545071
280.0	15.821583414790492
300.0	16.708993466714812
330.0	17.623777842258043
360.0	18.551246968664945
400.0	19.48588233762468
450.0	20.44244593972674
500.0	20.576021850914973
550.0	21.517065841555752
600.0	22.46030346236022
650.0	23.380247390943463
700.0	23.5077868607209
750.0	24.407050996224037
800.0	25.29552814740062
900.0	26.282299460851522
1000.0	27.365482709859982
1100.0	27.492214071573088
1200.0	28.42649476761163
1300.0	29.31635586774108
1500.0	30.421166083383916
1700.0	31.483521544428264
2000.0	33.28307631499663
2500.0	34.84292594888369
3000.0	36.801908504069644
4000.0	39.86334411156098
5000.0	41.83921236472175
6000.0	44.035010321327775
7000.0	45.72114105428393
8000.0	47.59434244405845
9000.0	49.0764448868467
10000.0	51.37701236633216
12000.0	52.85071473106446
15000.0	56.16804453540506
20000.0	60.93761924555512
30000.0	68.37936124230839
50000.0	79.67372534984511
100000.0	99.08020548086552
